# title     = Sopra (Al(x)Ga(1-x))(50)In(50)P
# reference = Sopra database (H.KATO et al., Japan J. Appl. Phys. Vol 33 (1994) pp. 186-192)
# note      = Al-Concentration x = 0.3
# unit      = micro-m,1,1
# columns   = wavelength, n, k
# xtitle    = wavelength [micro-m]
# ytitle    = n, k
# dataType  = list
0.2250 1.554989 2.663428
0.2275 1.595924 2.716581
0.2300 1.641986 2.772485
0.2325 1.694347 2.830968
0.2350 1.7544 2.891604
0.2375 1.823758 2.953576
0.2400 1.904196 3.0155
0.2425 1.997507 3.075221
0.2450 2.105227 3.129592
0.2475 2.228143 3.174335
0.2500 2.365611 3.20412
0.2525 2.514756 3.213113
0.2550 2.669888 3.196102
0.2575 2.822676 3.150143
0.2600 2.963475 3.076074
0.2625 3.0834 2.979134
0.2650 3.176886 2.867736
0.2675 3.242537 2.751351
0.2700 3.282704 2.638278
0.2725 3.302031 2.534362
0.2750 3.305908 2.442814
0.2775 3.299375 2.364696
0.2800 3.286586 2.29966
0.2825 3.270695 2.246562
0.2850 3.253951 2.20394
0.2875 3.237878 2.170274
0.2900 3.223461 2.144143
0.2925 3.211299 2.124294
0.2950 3.201728 2.109653
0.2975 3.194914 2.099326
0.3000 3.190913 2.092576
0.3025 3.189721 2.088799
0.3050 3.191304 2.087508
0.3075 3.195614 2.088308
0.3100 3.202612 2.090878
0.3125 3.212278 2.094953
0.3150 3.224622 2.1003
0.3175 3.239625 2.106842
0.3200 3.257152 2.114878
0.3225 3.27788 2.122999
0.3250 3.301621 2.131683
0.3275 3.328576 2.140687
0.3300 3.358962 2.149734
0.3325 3.393015 2.158479
0.3350 3.430979 2.166488
0.3375 3.473077 2.173218
0.3400 3.519482 2.178003
0.3425 3.570266 2.180051
0.3450 3.625351 2.17845
0.3475 3.68445 2.172201
0.3500 3.747015 2.160272
0.3525 3.812195 2.141678
0.3550 3.87884 2.115593
0.3575 3.945526 2.081452
0.3600 4.010641 2.039059
0.3625 4.072514 1.98865
0.3650 4.129564 1.930903
0.3675 4.180437 1.866895
0.3700 4.224131 1.797993
0.3725 4.260049 1.725722
0.3750 4.288007 1.651625
0.3775 4.308188 1.577142
0.3800 4.321066 1.503525
0.3825 4.327315 1.431791
0.3850 4.327721 1.3627
0.3875 4.323112 1.296778
0.3900 4.314297 1.234398
0.3925 4.302038 1.175695
0.3950 4.28702 1.120707
0.3975 4.269844 1.069373
0.4000 4.251025 1.021564
0.4025 4.231001 0.977108
0.4050 4.210136 0.935808
0.4075 4.188729 0.897457
0.4100 4.167022 0.86184
0.4125 4.145212 0.828754
0.4150 4.123454 0.797997
0.4175 4.101871 0.769381
0.4200 4.080561 0.74273
0.4225 4.059594 0.71788
0.4250 4.039054 0.694695
0.4275 4.018736 0.672927
0.4300 3.998538 0.652401
0.4325 3.979419 0.633406
0.4350 3.960763 0.61556
0.4375 3.942613 0.598785
0.4400 3.92497 0.582995
0.4425 3.907833 0.568111
0.4450 3.891194 0.55406
0.4475 3.875047 0.540777
0.4500 3.859379 0.528201
0.4525 3.844179 0.516277
0.4550 3.829443 0.504962
0.4575 3.815154 0.494206
0.4600 3.801298 0.483968
0.4625 3.787864 0.474209
0.4650 3.774838 0.464896
0.4675 3.762209 0.455995
0.4700 3.749961 0.447478
0.4725 3.738084 0.439319
0.4750 3.726563 0.43149
0.4775 3.715389 0.42397
0.4800 3.70455 0.416736
0.4825 3.694032 0.40977
0.4850 3.683826 0.403053
0.4875 3.673921 0.396569
0.4900 3.664306 0.3903
0.4925 3.654973 0.384233
0.4950 3.64591 0.378353
0.4975 3.637108 0.372646
0.5000 3.628559 0.367103
0.5025 3.620254 0.36171
0.5050 3.612183 0.356458
0.5075 3.60434 0.351335
0.5100 3.596717 0.346332
0.5125 3.589305 0.341441
0.5150 3.582095 0.336651
0.5175 3.575081 0.331956
0.5200 3.56826 0.327347
0.5225 3.561621 0.322817
0.5250 3.555158 0.318358
0.5275 3.548865 0.313964
0.5300 3.542735 0.309628
0.5325 3.536761 0.305341
0.5350 3.530938 0.301099
0.5375 3.525259 0.296894
0.5400 3.519718 0.292721
0.5425 3.514309 0.288573
0.5450 3.509024 0.284443
0.5475 3.503858 0.280325
0.5500 3.498803 0.276212
0.5525 3.493852 0.272099
0.5550 3.488998 0.267979
0.5575 3.484232 0.263845
0.5600 3.479547 0.259688
0.5625 3.47493 0.255504
0.5650 3.470372 0.251284
0.5675 3.465859 0.247021
0.5700 3.461378 0.242708
0.5725 3.45691 0.238338
0.5750 3.452437 0.233906
0.5775 3.447931 0.229406
0.5800 3.443366 0.224841
0.5825 3.438707 0.220214
0.5850 3.433914 0.21554
0.5875 3.428947 0.210849
0.5900 3.423769 0.206187
0.5925 3.418355 0.201621
0.5950 3.41271 0.19723
0.5975 3.406871 0.193093
0.6000 3.400908 0.189263
0.6025 3.394898 0.185761
0.6050 3.388916 0.182576
0.6075 3.383015 0.179675
0.6100 3.377229 0.177022
0.6125 3.37158 0.174577
0.6150 3.366073 0.172308
0.6175 3.36071 0.170187
0.6200 3.355488 0.168192
0.6225 3.350401 0.166304
0.6250 3.345446 0.164508
0.6275 3.340614 0.162793
0.6300 3.3359 0.161149
0.6325 3.331299 0.159569
0.6350 3.326804 0.158045
0.6375 3.322411 0.156573
0.6400 3.318115 0.155148
0.6425 3.313911 0.153766
0.6450 3.309794 0.152424
0.6475 3.305762 0.151118
0.6500 3.301812 0.149847
0.6525 3.29794 0.148608
0.6550 3.294142 0.147399
0.6575 3.290417 0.146219
0.6600 3.28676 0.145067
0.6625 3.283171 0.14394
0.6650 3.279646 0.142837
0.6675 3.276184 0.141758
0.6700 3.272782 0.1407
0.6725 3.269439 0.139665
0.6750 3.266151 0.13865
0.6775 3.262919 0.137654
0.6800 3.25974 0.136678
0.6825 3.256613 0.135719
0.6850 3.253537 0.134778
0.6875 3.250509 0.133855
0.6900 3.247529 0.132947
0.6925 3.244594 0.132056
0.6950 3.241705 0.131179
0.6975 3.238861 0.130317
0.7000 3.236058 0.129471
0.7025 3.233298 0.128638
0.7050 3.230579 0.127819
0.7075 3.227899 0.127013
0.7100 3.225257 0.12622
0.7125 3.222654 0.125439
0.7150 3.220088 0.12467
0.7175 3.217557 0.123913
0.7200 3.215062 0.123168
0.7225 3.212602 0.122434
0.7250 3.210177 0.121711
0.7275 3.207784 0.120998
0.7300 3.205423 0.120296
0.7325 3.203094 0.119605
0.7350 3.200796 0.118923
0.7375 3.198528 0.118251
0.7400 3.19629 0.117588
0.7425 3.194082 0.116934
0.7450 3.191902 0.11629
0.7475 3.18975 0.115654
0.7500 3.187626 0.115027
0.7525 3.185528 0.114408
0.7550 3.183456 0.113798
0.7575 3.181411 0.113195
0.7600 3.179391 0.112601
0.7625 3.177397 0.112015
0.7650 3.175426 0.111436
0.7675 3.17348 0.110864
0.7700 3.171557 0.1103
0.7725 3.169657 0.109742
0.7750 3.16778 0.109192
0.7775 3.165925 0.108648
0.7800 3.164092 0.108112
0.7825 3.162281 0.107581
0.7850 3.16049 0.107058
0.7875 3.158721 0.10654
0.7900 3.156973 0.106029
0.7925 3.155244 0.105524
0.7950 3.153535 0.105025
0.7975 3.151846 0.104531
0.8000 3.150176 0.104044
0.8025 3.148524 0.103563
0.8050 3.14689 0.103086
0.8075 3.145275 0.102615
0.8100 3.143678 0.102149
0.8125 3.142098 0.101689
0.8150 3.140536 0.101234
0.8175 3.13899 0.100784
0.8200 3.137462 0.100339
0.8225 3.13595 0.099899
0.8250 3.134454 0.099463
0.8275 3.132974 0.099033
0.8300 3.13151 0.098607
0.8325 3.130061 0.098185
0.8350 3.128628 0.097768
0.8375 3.12721 0.097356
0.8400 3.125805 0.096947
0.8425 3.124415 0.096543
0.8450 3.123041 0.096144
0.8475 3.12168 0.095748
0.8500 3.120333 0.095357
0.8525 3.119 0.094969
0.8550 3.117681 0.094585
0.8575 3.116374 0.094206
0.8600 3.115081 0.09383
0.8625 3.1138 0.093457
0.8650 3.112533 0.093089
0.8675 3.111278 0.092725
0.8700 3.110035 0.092363
0.8725 3.108804 0.092005
0.8750 3.107586 0.091652
0.8775 3.106379 0.091301
0.8800 3.105184 0.090953
0.8825 3.104001 0.090609
0.8850 3.102829 0.090268
0.8875 3.101668 0.089931
0.8900 3.100518 0.089596
0.8925 3.09938 0.089265
0.8950 3.098251 0.088936
0.8975 3.097134 0.088612
0.9000 3.096027 0.088289
0.9025 3.09493 0.08797
0.9050 3.093843 0.087653
0.9075 3.092766 0.08734
0.9100 3.0917 0.08703
0.9125 3.090642 0.086721
0.9150 3.089596 0.086416
0.9175 3.088558 0.086114
0.9200 3.087529 0.085815
0.9225 3.08651 0.085517
0.9250 3.0855 0.085223
0.9275 3.0845 0.084931
0.9300 3.083508 0.084642
0.9325 3.082525 0.084355
0.9350 3.081551 0.084071
0.9375 3.080585 0.083789
0.9400 3.079628 0.083509
0.9425 3.078679 0.083231
0.9450 3.077739 0.082956
0.9475 3.076806 0.082684
0.9500 3.075881 0.082413
0.9525 3.074965 0.082145
0.9550 3.074056 0.08188
0.9575 3.073156 0.081616
0.9600 3.072263 0.081354
0.9625 3.071378 0.081095
0.9650 3.070499 0.080839
0.9675 3.069629 0.080583
0.9700 3.068766 0.08033
0.9725 3.067909 0.080079
0.9750 3.067061 0.07983
0.9775 3.066219 0.079582
0.9800 3.065384 0.079337
0.9825 3.064556 0.079094
0.9850 3.063735 0.078853
0.9875 3.062921 0.078614
0.9900 3.062113 0.078376
0.9925 3.061312 0.07814
0.9950 3.060517 0.077906
0.9975 3.059728 0.077674
1.0000 3.058947 0.077444
