# title     = Sopra (Al(x)Ga(1-x))(50)In(50)P
# reference = Sopra database (H.KATO et al., Japan J. Appl. Phys. Vol 33 (1994) pp. 186-192)
# note      = Al-Concentration x = 0.1
# unit      = micro-m,1,1
# columns   = wavelength, n, k
# xtitle    = wavelength [micro-m]
# ytitle    = n, k
# dataType  = list
0.2250 1.52667 2.720966
0.2275 1.575226 2.777812
0.2300 1.629968 2.83651
0.2325 1.692032 2.896551
0.2350 1.762681 2.957106
0.2375 1.843243 3.016913
0.2400 1.935 3.074153
0.2425 2.038994 3.126323
0.2450 2.155724 3.170182
0.2475 2.284737 3.201813
0.2500 2.42416 3.216912
0.2525 2.570333 3.21141
0.2550 2.717749 3.182363
0.2575 2.859558 3.12894
0.2600 2.988692 3.053046
0.2625 3.099097 2.959387
0.2650 3.187193 2.854407
0.2675 3.252119 2.745064
0.2700 3.295452 2.637537
0.2725 3.320375 2.536466
0.2750 3.330754 2.444755
0.2775 3.330431 2.363785
0.2800 3.322798 2.293816
0.2825 3.310628 2.234368
0.2850 3.296063 2.184564
0.2875 3.280686 2.143348
0.2900 3.265629 2.109637
0.2925 3.251669 2.082401
0.2950 3.239324 2.060706
0.2975 3.228919 2.043731
0.3000 3.220649 2.030767
0.3025 3.214615 2.021212
0.3050 3.210863 2.014558
0.3075 3.209401 2.010377
0.3100 3.210216 2.008314
0.3125 3.213294 2.008072
0.3150 3.218619 2.009402
0.3175 3.226187 2.012091
0.3200 3.236012 2.015962
0.3225 3.248129 2.020851
0.3250 3.26259 2.026591
0.3275 3.279425 2.033166
0.3300 3.298561 2.040875
0.3325 3.32065 2.048309
0.3350 3.345547 2.055948
0.3375 3.373438 2.063519
0.3400 3.404505 2.070712
0.3425 3.438928 2.077153
0.3450 3.47686 2.082381
0.3475 3.518408 2.085849
0.3500 3.563597 2.086922
0.3525 3.612331 2.084881
0.3550 3.664364 2.078956
0.3575 3.719257 2.068356
0.3600 3.776359 2.05233
0.3625 3.834802 2.030239
0.3650 3.893527 2.001616
0.3675 3.951325 1.966253
0.3700 4.006928 1.924232
0.3725 4.059097 1.875958
0.3750 4.106718 1.822126
0.3775 4.148893 1.763674
0.3800 4.184988 1.701708
0.3825 4.214668 1.637397
0.3850 4.237882 1.571885
0.3875 4.254818 1.506228
0.3900 4.265851 1.441385
0.3925 4.271506 1.378085
0.3950 4.272372 1.316913
0.3975 4.269072 1.258284
0.4000 4.262219 1.202471
0.4025 4.252399 1.149624
0.4050 4.240142 1.099799
0.4075 4.225925 1.052971
0.4100 4.210167 1.009068
0.4125 4.193227 0.967976
0.4150 4.175413 0.929558
0.4175 4.156978 0.893661
0.4200 4.13814 0.86013
0.4225 4.119075 0.828806
0.4250 4.099927 0.799532
0.4275 4.080814 0.77216
0.4300 4.061828 0.74655
0.4325 4.043073 0.722579
0.4350 4.024357 0.700004
0.4375 4.00562 0.678664
0.4400 3.987796 0.65888
0.4425 3.970301 0.640258
0.4450 3.953193 0.622725
0.4475 3.936483 0.6062
0.4500 3.920175 0.590603
0.4525 3.904273 0.575864
0.4550 3.888786 0.561926
0.4575 3.873707 0.548725
0.4600 3.85903 0.536208
0.4625 3.844751 0.524326
0.4650 3.830861 0.513033
0.4675 3.817355 0.502287
0.4700 3.804222 0.49205
0.4725 3.791455 0.482288
0.4750 3.779043 0.472968
0.4775 3.766978 0.464059
0.4800 3.75525 0.455536
0.4825 3.743847 0.447371
0.4850 3.732762 0.439542
0.4875 3.721985 0.432026
0.4900 3.711507 0.424805
0.4925 3.701319 0.417858
0.4950 3.69141 0.411169
0.4975 3.681774 0.404722
0.5000 3.6724 0.398501
0.5025 3.663282 0.392493
0.5050 3.65441 0.386684
0.5075 3.645778 0.381062
0.5100 3.637376 0.375615
0.5125 3.629199 0.370335
0.5150 3.621237 0.365208
0.5175 3.613485 0.360226
0.5200 3.605939 0.355382
0.5225 3.598588 0.350665
0.5250 3.591429 0.34607
0.5275 3.584454 0.341586
0.5300 3.577658 0.337208
0.5325 3.571036 0.33293
0.5350 3.56458 0.328743
0.5375 3.558287 0.324641
0.5400 3.55215 0.320621
0.5425 3.546166 0.316676
0.5450 3.540328 0.312801
0.5475 3.534633 0.30899
0.5500 3.529075 0.305237
0.5525 3.523649 0.30154
0.5550 3.518352 0.297893
0.5575 3.513179 0.294291
0.5600 3.508125 0.29073
0.5625 3.503186 0.287206
0.5650 3.498357 0.283715
0.5675 3.493635 0.280252
0.5700 3.489016 0.276813
0.5725 3.484493 0.273395
0.5750 3.480064 0.269994
0.5775 3.475723 0.266604
0.5800 3.471467 0.263223
0.5825 3.46729 0.259847
0.5850 3.463186 0.25647
0.5875 3.459152 0.25309
0.5900 3.455181 0.249702
0.5925 3.451267 0.246303
0.5950 3.447403 0.242888
0.5975 3.443582 0.239453
0.6000 3.439796 0.235994
0.6025 3.436035 0.232507
0.6050 3.432289 0.22899
0.6075 3.428546 0.22544
0.6100 3.424792 0.221855
0.6125 3.421013 0.218236
0.6150 3.417191 0.214586
0.6175 3.413306 0.21091
0.6200 3.409338 0.207222
0.6225 3.405267 0.203538
0.6250 3.401077 0.199884
0.6275 3.396755 0.196293
0.6300 3.392306 0.192804
0.6325 3.387739 0.189454
0.6350 3.383083 0.186275
0.6375 3.378371 0.183289
0.6400 3.373644 0.180503
0.6425 3.368932 0.177912
0.6450 3.364267 0.175503
0.6475 3.359668 0.173258
0.6500 3.35515 0.171159
0.6525 3.350722 0.16919
0.6550 3.346384 0.167332
0.6575 3.34214 0.165572
0.6600 3.337988 0.163898
0.6625 3.333926 0.162299
0.6650 3.329953 0.160768
0.6675 3.326064 0.159298
0.6700 3.322257 0.157881
0.6725 3.318528 0.156512
0.6750 3.314875 0.155189
0.6775 3.311295 0.153906
0.6800 3.307786 0.15266
0.6825 3.304343 0.151449
0.6850 3.300965 0.15027
0.6875 3.29765 0.149122
0.6900 3.294395 0.148001
0.6925 3.291197 0.146906
0.6950 3.288057 0.145837
0.6975 3.28497 0.144791
0.7000 3.281934 0.143767
0.7025 3.278951 0.142765
0.7050 3.276016 0.141783
0.7075 3.273129 0.140821
0.7100 3.270289 0.139877
0.7125 3.267492 0.13895
0.7150 3.26474 0.138041
0.7175 3.262031 0.137148
0.7200 3.259362 0.136272
0.7225 3.256735 0.13541
0.7250 3.254146 0.134563
0.7275 3.251595 0.13373
0.7300 3.249082 0.132911
0.7325 3.246605 0.132106
0.7350 3.244164 0.131313
0.7375 3.241756 0.130533
0.7400 3.239381 0.129765
0.7425 3.237041 0.129009
0.7450 3.234733 0.128264
0.7475 3.232455 0.12753
0.7500 3.230209 0.126807
0.7525 3.227993 0.126095
0.7550 3.225805 0.125393
0.7575 3.223647 0.124701
0.7600 3.221518 0.124019
0.7625 3.219415 0.123347
0.7650 3.21734 0.122683
0.7675 3.215291 0.122029
0.7700 3.213268 0.121383
0.7725 3.21127 0.120747
0.7750 3.209298 0.120118
0.7775 3.20735 0.119499
0.7800 3.205425 0.118887
0.7825 3.203524 0.118282
0.7850 3.201647 0.117686
0.7875 3.199792 0.117098
0.7900 3.197959 0.116517
0.7925 3.196149 0.115943
0.7950 3.194359 0.115376
0.7975 3.19259 0.114817
0.8000 3.190842 0.114263
0.8025 3.189115 0.113717
0.8050 3.187407 0.113177
0.8075 3.185719 0.112644
0.8100 3.18405 0.112117
0.8125 3.1824 0.111596
0.8150 3.180768 0.111081
0.8175 3.179156 0.110572
0.8200 3.177561 0.11007
0.8225 3.175983 0.109572
0.8250 3.174423 0.10908
0.8275 3.17288 0.108594
0.8300 3.171354 0.108113
0.8325 3.169844 0.107638
0.8350 3.168351 0.107168
0.8375 3.166874 0.106703
0.8400 3.165412 0.106243
0.8425 3.163965 0.105788
0.8450 3.162534 0.105338
0.8475 3.161119 0.104893
0.8500 3.159718 0.104451
0.8525 3.15833 0.104016
0.8550 3.156958 0.103584
0.8575 3.1556 0.103158
0.8600 3.154257 0.102735
0.8625 3.152926 0.102316
0.8650 3.151609 0.101902
0.8675 3.150305 0.101493
0.8700 3.149014 0.101088
0.8725 3.147737 0.100685
0.8750 3.146472 0.100288
0.8775 3.14522 0.099895
0.8800 3.14398 0.099505
0.8825 3.142751 0.099119
0.8850 3.141536 0.098737
0.8875 3.140332 0.098359
0.8900 3.13914 0.097984
0.8925 3.137959 0.097612
0.8950 3.136789 0.097244
0.8975 3.13563 0.096881
0.9000 3.134483 0.096519
0.9025 3.133347 0.096162
0.9050 3.132221 0.095808
0.9075 3.131106 0.095457
0.9100 3.130001 0.095109
0.9125 3.128906 0.094765
0.9150 3.127822 0.094424
0.9175 3.126747 0.094086
0.9200 3.125683 0.09375
0.9225 3.124629 0.093418
0.9250 3.123583 0.093089
0.9275 3.122548 0.092763
0.9300 3.121522 0.09244
0.9325 3.120505 0.092119
0.9350 3.119497 0.091801
0.9375 3.118498 0.091486
0.9400 3.117509 0.091174
0.9425 3.116527 0.090865
0.9450 3.115556 0.090558
0.9475 3.114592 0.090253
0.9500 3.113636 0.089952
0.9525 3.112689 0.089653
0.9550 3.11175 0.089356
0.9575 3.11082 0.089062
0.9600 3.109897 0.08877
0.9625 3.108982 0.088481
0.9650 3.108076 0.088194
0.9675 3.107177 0.08791
0.9700 3.106284 0.087628
0.9725 3.105401 0.087348
0.9750 3.104524 0.08707
0.9775 3.103655 0.086795
0.9800 3.102793 0.086522
0.9825 3.101939 0.08625
0.9850 3.101091 0.085982
0.9875 3.100251 0.085715
0.9900 3.099418 0.08545
0.9925 3.098591 0.085188
0.9950 3.097771 0.084928
0.9975 3.096958 0.084669
1.0000 3.096152 0.084413
